time,seconds_elapsed,z,y,x
1700810754682863000,0.050863037109375,0.1253643035888672,-0.22067803144454956,1.3325852155685425
1700810754692863200,0.06086328125,0.12457466125488281,-0.21733489632606506,1.328139305114746
1700810754702863000,0.070863037109375,0.12357330322265625,-0.20769065618515015,1.323622703552246
1700810754712863200,0.08086328125,0.12273311614990234,-0.20429515838623047,1.3187917470932007
1700810754722863000,0.090863037109375,0.124542236328125,-0.22287708520889282,1.3267112970352173
1700810754732863200,0.10086328125,0.12620258331298828,-0.2412143051624298,1.3334397077560425
1700810754742863000,0.110863037109375,0.12702369689941406,-0.25597140192985535,1.3353052139282227
1700810754752863200,0.12086328125,0.12723159790039062,-0.26714256405830383,1.3339183330535889
1700810754762863000,0.130863037109375,0.1268930435180664,-0.2738857567310333,1.3299996852874756
1700810754772863200,0.14086328125,0.12615203857421875,-0.27573567628860474,1.324661135673523
1700810754782863000,0.150863037109375,0.12522411346435547,-0.27369654178619385,1.319071650505066
1700810754792863200,0.16086328125,0.12450695037841797,-0.269599974155426,1.315378189086914
1700810754802863000,0.170863037109375,0.1244344711303711,-0.26598966121673584,1.3158093690872192
1700810754812863200,0.18086328125,0.12511157989501953,-0.26489922404289246,1.3205616474151611
1700810754822863000,0.190863037109375,0.12622642517089844,-0.26724404096603394,1.3273060321807861
1700810754832863200,0.20086328125,0.12754535675048828,-0.2719639539718628,1.3347513675689697
1700810754842863000,0.210863037109375,0.12900257110595703,-0.27761510014533997,1.342811942100525
1700810754852863200,0.22086328125,0.1302967071533203,-0.28274983167648315,1.3498765230178833
1700810754862863000,0.230863037109375,0.13091754913330078,-0.2862095832824707,1.3529961109161377
1700810754872863200,0.24086328125,0.13065528869628906,-0.28739771246910095,1.3509858846664429
1700810754882863000,0.250863037109375,0.12985992431640625,-0.28663399815559387,1.3460484743118286
1700810754892863200,0.26086328125,0.12905120849609375,-0.2854187786579132,1.3411136865615845
1700810754902863000,0.270863037109375,0.1283435821533203,-0.2855992615222931,1.336457371711731
1700810754912863200,0.28086328125,0.1277332305908203,-0.2881576418876648,1.3317946195602417
1700810754922863000,0.290863037109375,0.1273355484008789,-0.29340270161628723,1.3277926445007324
1700810754932863200,0.30086328125,0.12753677368164062,-0.3015564978122711,1.3269050121307373
1700810754942863000,0.310863037109375,0.1284170150756836,-0.3127264380455017,1.3295754194259644
1700810754952863200,0.32086328125,0.12947845458984375,-0.3255928158760071,1.3328475952148438
1700810754962863000,0.330863037109375,0.12999534606933594,-0.3381359577178955,1.3325480222702026
1700810754972863200,0.34086328125,0.13682937622070312,-0.6185935139656067,1.2656251192092896
1700810754982863000,0.350863037109375,0.15091800689697266,-0.8931053280830383,1.1934075355529785
1700810754992863200,0.36086328125,0.17275714874267578,-1.1637163162231445,1.120349645614624
1700810755002863000,0.370863037109375,0.20250701904296875,-1.431747555732727,1.0481144189834595
1700810755012863200,0.38086328125,0.24048519134521484,-1.6988422870635986,0.9781591892242432
1700810755022863000,0.390863037109375,0.2871074676513672,-1.9666746854782104,0.9111989736557007
1700810755032863200,0.40086328125,0.3426685333251953,-2.235978126525879,0.8471364974975586
1700810755042863000,0.410863037109375,0.4068784713745117,-2.5060505867004395,0.7827293872833252
1700810755052863200,0.42086328125,0.47966670989990234,-2.7763218879699707,0.7163916826248169
1700810755062863000,0.430863037109375,-0.4832172393798828,1.226391315460205,0.3993017375469208
1700810755072863200,0.44086328125,-0.3402280807495117,1.1992714405059814,0.3751177191734314
1700810755082863000,0.450863037109375,-0.12980365753173828,1.1158173084259033,0.24097323417663574
1700810755092863200,0.46086328125,-0.07050132751464844,1.0446646213531494,0.1963186264038086
1700810755102863000,0.470863037109375,0.0486907958984375,1.054093837738037,0.2830352485179901
1700810755112863200,0.48086328125,0.10367774963378906,0.8609762191772461,0.19883614778518677
1700810755122863000,0.490863037109375,-0.1178293228149414,0.8563284873962402,0.1708317995071411
1700810755132863200,0.50086328125,-0.3802051544189453,0.9638707637786865,0.18451398611068726
1700810755142863000,0.510863037109375,-0.5420303344726562,1.0353477001190186,0.22992798686027527
1700810755152863200,0.52086328125,-0.711212158203125,1.095679759979248,0.27773162722587585
1700810755162863000,0.530863037109375,-0.6967496871948242,1.059140920639038,0.2554211914539337
1700810755172863200,0.54086328125,-0.5529413223266602,1.0355370044708252,0.13202977180480957
1700810755182863000,0.550863037109375,-0.40448665618896484,1.0351858139038086,0.03342783451080322
1700810755192863200,0.56086328125,-0.31090354919433594,1.0161378383636475,0.03889596462249756
1700810755202863000,0.570863037109375,-0.214752197265625,0.9563941955566406,0.10257595777511597
1700810755212863200,0.58086328125,-0.25446510314941406,0.8812828063964844,0.15048134326934814
1700810755222863000,0.590863037109375,-0.43891143798828125,0.8369848728179932,0.19204449653625488
1700810755232863200,0.60086328125,-0.5491943359375,0.8218328952789307,0.24984347820281982
1700810755242863000,0.610863037109375,-0.5936985015869141,0.8673694133758545,0.22080516815185547
1700810755252863200,0.62086328125,-0.5394659042358398,0.9318418502807617,0.1294330358505249
1700810755262863000,0.630863037109375,-0.4176158905029297,0.947880744934082,-0.008607089519500732
1700810755272863200,0.64086328125,-0.2633962631225586,0.9470891952514648,-0.12044590711593628
1700810755282863000,0.650863037109375,-0.17624282836914062,0.9580740928649902,-0.143177330493927
1700810755292863200,0.66086328125,-0.22706890106201172,0.9647178649902344,-0.09414279460906982
1700810755302863000,0.670863037109375,-0.4754800796508789,1.0002267360687256,-0.007241785526275635
1700810755312863200,0.68086328125,-0.775782585144043,1.042914628982544,0.12753373384475708
1700810755322863000,0.690863037109375,-0.9400138854980469,1.0642542839050293,0.19329887628555298
1700810755332863200,0.70086328125,-1.0174283981323242,1.0745809078216553,0.12819057703018188
1700810755342863000,0.710863037109375,-1.0325236320495605,1.0778799057006836,-0.010707855224609375
1700810755352863200,0.72086328125,-1.1051812171936035,1.081916332244873,-0.1453729271888733
1700810755362863000,0.730863037109375,-1.136946678161621,1.1076679229736328,-0.12911784648895264
1700810755372863200,0.74086328125,-1.1398711204528809,1.0712895393371582,-0.1186479926109314
1700810755382863000,0.750863037109375,-1.1998600959777832,1.0389184951782227,-0.15610289573669434
1700810755392863200,0.76086328125,-1.201791763305664,1.072479248046875,-0.13569939136505127
1700810755402863000,0.770863037109375,-1.2221574783325195,1.025864839553833,-0.06840181350708008
1700810755412863200,0.78086328125,-1.2347755432128906,0.9449923038482666,-0.047466397285461426
1700810755422863000,0.790863037109375,-1.2567267417907715,0.8876509666442871,0.029131829738616943
1700810755432863200,0.80086328125,-0.9773902893066406,0.8341102600097656,0.09249389171600342
1700810755442863000,0.810863037109375,-0.5354042053222656,0.7907631397247314,-0.13135600090026855
1700810755452863200,0.82086328125,0.03736305236816406,0.7598326206207275,-0.26249563694000244
1700810755462863400,0.83086328125,0.44182300567626953,0.7510957717895508,-0.2750173807144165
1700810755472863200,0.84086328125,0.6832599639892578,0.7488796710968018,-0.15775811672210693
1700810755482863400,0.85086328125,0.7888946533203125,0.6986944675445557,0.014391660690307617
1700810755492863200,0.86086328125,0.7953023910522461,0.6347112655639648,0.1155773401260376
1700810755502863400,0.87086328125,0.663884162902832,0.5772662162780762,0.16549086570739746
1700810755512863200,0.88086328125,0.43466663360595703,0.614804744720459,0.17464464902877808
1700810755522863400,0.89086328125,0.17812824249267578,0.6042232513427734,0.18654465675354004
1700810755532863200,0.90086328125,0.036086082458496094,0.6398041248321533,0.22182852029800415
1700810755542863400,0.91086328125,-0.11722660064697266,0.6254444122314453,0.20198047161102295
1700810755552863200,0.92086328125,-0.2629232406616211,0.6140079498291016,0.16354602575302124
1700810755562863400,0.93086328125,-0.2190093994140625,0.6225483417510986,0.2452692985534668
1700810755572863200,0.94086328125,-0.08303356170654297,0.5763330459594727,0.29169291257858276
1700810755582863400,0.95086328125,0.0168609619140625,0.4852941036224365,0.26535144448280334
1700810755592863200,0.96086328125,0.014601707458496094,0.4503653049468994,0.3325197696685791
1700810755602863400,0.97086328125,-0.08190250396728516,0.49123334884643555,0.338827908039093
1700810755612863200,0.98086328125,-0.2126150131225586,0.48523974418640137,0.3288153409957886
1700810755622863400,0.99086328125,-0.3992757797241211,0.46637415885925293,0.34078067541122437
1700810755632863200,1.00086328125,-0.5680027008056641,0.5264654159545898,0.283927857875824
1700810755642863400,1.01086328125,-0.7477970123291016,0.5823945999145508,0.22311168909072876
1700810755652863200,1.02086328125,-0.9226794242858887,0.6503381729125977,0.2255953550338745
1700810755662863400,1.03086328125,-1.009758472442627,0.6866040229797363,0.20406097173690796
1700810755672863200,1.04086328125,-1.0627527236938477,0.7315073013305664,0.13788330554962158
1700810755682863400,1.05086328125,-0.9555726051330566,0.772432804107666,0.14465337991714478
1700810755692863200,1.06086328125,-0.6838407516479492,0.7528700828552246,0.11237388849258423
1700810755702863400,1.07086328125,-0.37664794921875,0.6938557624816895,0.023881852626800537
1700810755712863200,1.08086328125,-0.14568328857421875,0.7202739715576172,-0.07631677389144897
1700810755722863400,1.09086328125,0.023542404174804688,0.7263259887695312,-0.11972308158874512
1700810755732863200,1.10086328125,0.1274280548095703,0.7072582244873047,-0.1694604754447937
1700810755742863400,1.11086328125,0.15439128875732422,0.6623916625976562,-0.16455811262130737
1700810755752863200,1.12086328125,0.1234893798828125,0.6495275497436523,-0.06594967842102051
1700810755762863000,1.130863037109375,0.0680551528930664,0.6498246192932129,0.017878472805023193
1700810755772863200,1.14086328125,-0.04553413391113281,0.6202592849731445,0.09066200256347656
1700810755782863000,1.150863037109375,-0.17209434509277344,0.592689037322998,0.1669372320175171
1700810755792863000,1.160863037109375,-0.22108936309814453,0.31244754791259766,0.18489480018615723
1700810755802863000,1.170863037109375,-0.26661014556884766,0.15687942504882812,0.15248119831085205
1700810755812863000,1.180863037109375,-0.2586669921875,0.12439346313476562,0.10951703786849976
1700810755822863000,1.190863037109375,-0.12148666381835938,0.046675682067871094,0.009314358234405518
1700810755832863000,1.200863037109375,0.07503795623779297,0.037138938903808594,-0.10038375854492188
1700810755842863000,1.210863037109375,0.20453166961669922,0.03265094757080078,-0.0538904070854187
1700810755852863000,1.220863037109375,0.18412208557128906,0.016902923583984375,0.033322274684906006
1700810755862863000,1.230863037109375,0.07596778869628906,0.0906229019165039,0.0634005069732666
1700810755872863000,1.240863037109375,0.11534976959228516,0.08484888076782227,0.11425501108169556
1700810755882863000,1.250863037109375,-0.03638648986816406,0.11165618896484375,0.1613696813583374
1700810755892863000,1.260863037109375,-0.09153938293457031,0.1445155143737793,0.06483322381973267
1700810755902863000,1.270863037109375,-0.17296695709228516,0.13706588745117188,0.0242537260055542
1700810755912863000,1.280863037109375,-0.32180309295654297,0.20967626571655273,0.10314798355102539
1700810755922863000,1.290863037109375,-0.47836780548095703,0.20162439346313477,-0.018860280513763428
1700810755932863000,1.300863037109375,-0.5884580612182617,0.19342422485351562,0.014533519744873047
1700810755942863000,1.310863037109375,-0.5185098648071289,0.21499919891357422,0.009240388870239258
1700810755952863000,1.320863037109375,-0.4267873764038086,0.23986053466796875,-0.0873100757598877
1700810755962863000,1.330863037109375,-0.36155128479003906,0.22108173370361328,-0.14603853225708008
1700810755972863000,1.340863037109375,-0.21306419372558594,0.25831079483032227,-0.24115020036697388
1700810755982863000,1.350863037109375,-0.2152853012084961,0.2619647979736328,-0.24410057067871094
1700810755992863000,1.360863037109375,0.03964996337890625,0.2342238426208496,-0.2597513198852539
1700810756002863000,1.370863037109375,0.1683330535888672,0.18613004684448242,-0.2569464445114136
1700810756012863000,1.380863037109375,0.22166824340820312,0.10761737823486328,-0.13688886165618896
1700810756022863000,1.390863037109375,0.2791910171508789,-0.005141735076904297,0.06451630592346191
1700810756032863000,1.400863037109375,0.2614564895629883,-0.08672714233398438,0.27302226424217224
1700810756042863000,1.410863037109375,0.2092437744140625,-0.13288354873657227,0.32679715752601624
1700810756052863000,1.420863037109375,0.1065073013305664,-0.10503196716308594,0.26131460070610046
1700810756062863000,1.430863037109375,0.004986763000488281,-0.052077293395996094,0.10090482234954834
1700810756072863000,1.440863037109375,-0.06268787384033203,0.019722938537597656,-0.03380537033081055
1700810756082863000,1.450863037109375,-0.1171722412109375,0.061397552490234375,-0.11288928985595703
1700810756092863200,1.46086328125,-0.16649341583251953,0.07395219802856445,-0.2019885778427124
1700810756102863000,1.470863037109375,-0.11112213134765625,0.0731048583984375,-0.1537039875984192
1700810756112863200,1.48086328125,-0.050823211669921875,0.03130531311035156,-0.05992323160171509
1700810756122863000,1.490863037109375,0.050182342529296875,-0.04504251480102539,0.0850943922996521
1700810756132863200,1.50086328125,0.09573173522949219,-0.10876607894897461,0.20815467834472656
1700810756142863000,1.510863037109375,0.10547351837158203,-0.12726831436157227,0.27549323439598083
1700810756152863200,1.52086328125,0.05849170684814453,-0.1016688346862793,0.24665188789367676
1700810756162863000,1.530863037109375,0.0914907455444336,-0.06824064254760742,0.1628095507621765
1700810756172863200,1.54086328125,0.2355661392211914,-0.01469564437866211,-0.04607045650482178
1700810756182863000,1.550863037109375,0.2443523406982422,0.02278900146484375,-0.13208472728729248
1700810756192863200,1.56086328125,0.187713623046875,0.031229019165039062,-0.15198808908462524
1700810756202863000,1.570863037109375,0.007929801940917969,0.022851943969726562,-0.05705666542053223
1700810756212863200,1.58086328125,-0.1255931854248047,0.04833793640136719,0.028156697750091553
1700810756225480000,1.59347998046875,-0.3436756134033203,0.10568761825561523,0.007866501808166504
1700810756235479800,1.603479736328125,-0.3624725341796875,0.15430498123168945,0.01819324493408203
1700810756245480000,1.61347998046875,-0.2836284637451172,0.14075088500976562,0.07560467720031738
1700810756255479800,1.623479736328125,-0.0996408462524414,0.11242914199829102,-0.017885923385620117
1700810756265480000,1.63347998046875,0.18056392669677734,0.07077217102050781,-0.1626749038696289
1700810756275479800,1.643479736328125,0.27542591094970703,0.0800161361694336,-0.2916620969772339
1700810756285480000,1.65347998046875,0.29572296142578125,0.13622045516967773,-0.24023526906967163
1700810756295479800,1.663479736328125,0.4441823959350586,0.03639078140258789,-0.2176370918750763
1700810756305481000,1.67348095703125,0.4293241500854492,-0.03072500228881836,-0.16414791345596313
1700810756315480800,1.683480712890625,0.49111270904541016,-0.0005307197570800781,0.05777093768119812
1700810756325481000,1.69348095703125,0.3663368225097656,0.016921520233154297,0.10468815267086029
1700810756335480800,1.703480712890625,0.17956256866455078,0.035347938537597656,0.1958775371313095
1700810756345481000,1.71348095703125,0.1164083480834961,-0.010922908782958984,0.17359086871147156
1700810756355480800,1.723480712890625,0.03921699523925781,-0.03377485275268555,0.17226138710975647
1700810756365481000,1.73348095703125,-0.10730648040771484,-0.035040855407714844,0.1633683145046234
1700810756375480800,1.743480712890625,-0.28258609771728516,-0.02390289306640625,0.11342267692089081
1700810756385481000,1.75348095703125,-0.4053621292114258,-0.00013685226440429688,0.10322072356939316
1700810756395480800,1.763480712890625,-0.48082923889160156,0.03447675704956055,0.13416223227977753
1700810756405481000,1.77348095703125,-0.4831075668334961,0.03275728225708008,0.16409707069396973
1700810756415480800,1.783480712890625,-0.3817424774169922,0.026921749114990234,0.11899784207344055
1700810756425481000,1.79348095703125,-0.28711414337158203,-0.025791168212890625,0.0789734423160553
1700810756435480800,1.803480712890625,-0.06987667083740234,-0.027367591857910156,0.08188391476869583
1700810756445481000,1.81348095703125,0.1054525375366211,-0.08189678192138672,0.015268296003341675
1700810756455480800,1.823480712890625,0.26666831970214844,-0.13680267333984375,-0.03639525547623634
1700810756465481000,1.83348095703125,0.3097972869873047,-0.12498903274536133,0.0642697885632515
1700810756475480800,1.843480712890625,0.20949077606201172,-0.0841526985168457,0.12335895746946335
1700810756485481000,1.85348095703125,-0.0964813232421875,-0.01676654815673828,0.1611616015434265
1700810756495480800,1.863480712890625,-0.31455326080322266,0.05275726318359375,0.21352189779281616
1700810756505481000,1.87348095703125,-0.5205330848693848,0.10262632369995117,0.1589655578136444
1700810756515480800,1.883480712890625,-0.5795183181762695,0.15982532501220703,0.03251724690198898
1700810756525481000,1.89348095703125,-0.5236883163452148,0.19025230407714844,-0.09856047481298447
1700810756535480800,1.903480712890625,-0.41327476501464844,0.1801915168762207,-0.18194544315338135
1700810756545481000,1.91348095703125,-0.2647714614868164,0.11959123611450195,-0.1867496371269226
1700810756555480800,1.923480712890625,-0.18067359924316406,0.1154017448425293,-0.1797827184200287
1700810756565481000,1.93348095703125,-0.04772758483886719,0.09695816040039062,-0.18521788716316223
1700810756575480800,1.943480712890625,0.04127311706542969,0.08722352981567383,-0.06985650211572647
1700810756585481000,1.95348095703125,0.28127574920654297,0.04852294921875,-0.1833447962999344
1700810756595480800,1.963480712890625,0.4815511703491211,0.02942180633544922,-0.1137077808380127
1700810756605480000,1.97347998046875,0.46103382110595703,-0.006932258605957031,-0.13721418380737305
1700810756615479800,1.983479736328125,0.5290756225585938,-0.01145315170288086,-0.0025781840085983276
1700810756625480000,1.99347998046875,0.5010566711425781,-0.07947206497192383,-0.003840893507003784
1700810756635479800,2.003479736328125,0.42945289611816406,-0.04315805435180664,0.19253726303577423
1700810756645480000,2.01347998046875,0.23725414276123047,-0.038376808166503906,0.32608360052108765
1700810756655479800,2.023479736328125,0.053638458251953125,0.014174461364746094,0.3384825885295868
1700810756665480000,2.03347998046875,-0.021910667419433594,0.04016399383544922,0.28969767689704895
1700810756675479800,2.043479736328125,-0.10770893096923828,0.016789913177490234,0.16869039833545685
1700810756685480000,2.05347998046875,-0.13108253479003906,0.01515960693359375,0.036121852695941925
1700810756695479800,2.063479736328125,-0.07159042358398438,0.09046125411987305,0.0011158585548400879
1700810756705480000,2.07347998046875,-0.021386146545410156,0.11227083206176758,-0.15739859640598297
1700810756715479800,2.083479736328125,-0.008963584899902344,0.06613492965698242,-0.2060295045375824
1700810756725480000,2.09347998046875,-0.053558349609375,0.05517244338989258,-0.1811782568693161
1700810756735479800,2.103479736328125,-0.11406135559082031,0.028240680694580078,-0.08506502956151962
1700810756745480000,2.11347998046875,-0.07114982604980469,-0.014218330383300781,0.020599424839019775
1700810756755479800,2.123479736328125,-0.06964969635009766,-0.016782283782958984,0.019026190042495728
1700810756765480000,2.13347998046875,0.21578025817871094,-0.10384845733642578,0.1712038218975067
1700810756775479800,2.143479736328125,0.2186574935913086,-0.12862634658813477,0.2045017033815384
1700810756785480000,2.15347998046875,0.17046451568603516,-0.16811609268188477,0.3107472062110901
1700810756795479800,2.163479736328125,0.036705970764160156,-0.19899988174438477,0.3870033621788025
1700810756805480000,2.17347998046875,-0.0899810791015625,-0.24393558502197266,0.35409530997276306
1700810756815479800,2.183479736328125,-0.16940975189208984,-0.18951654434204102,0.2971653938293457
1700810756825480000,2.19347998046875,-0.17529869079589844,-0.13625288009643555,0.20832858979701996
1700810756835479800,2.203479736328125,-0.16969776153564453,-0.07256841659545898,0.05047288537025452
1700810756845480000,2.21347998046875,-0.08739948272705078,-0.04021263122558594,-0.09800941497087479
1700810756855479800,2.223479736328125,-0.09809303283691406,0.04196453094482422,-0.011586099863052368
1700810756865480000,2.23347998046875,-0.16076946258544922,0.038834571838378906,0.025367960333824158
1700810756875479800,2.243479736328125,-0.16323184967041016,-0.04429292678833008,0.07124269008636475
1700810756885480000,2.25347998046875,-0.1253032684326172,-0.05717182159423828,0.17277707159519196
1700810756895479800,2.263479736328125,-0.1307830810546875,-0.05270576477050781,0.22069136798381805
1700810756905480000,2.27347998046875,-0.09115791320800781,-0.008904457092285156,0.24341656267642975
1700810756915479800,2.283479736328125,-0.047344207763671875,-0.019417285919189453,0.14854484796524048
1700810756925480000,2.29347998046875,-0.06629180908203125,0.009231090545654297,0.0711846798658371
1700810756935479800,2.303479736328125,-0.1453094482421875,0.06929492950439453,0.07692922651767731
1700810756945480000,2.31347998046875,-0.2103862762451172,0.07982635498046875,0.15663141012191772
1700810756955479800,2.323479736328125,-0.22127532958984375,0.03931140899658203,0.14805105328559875
1700810756965480000,2.33347998046875,-0.16637897491455078,0.10150480270385742,0.07023659348487854
1700810756975479800,2.343479736328125,-0.007298469543457031,0.34500646591186523,-0.4716840386390686
1700810756985480000,2.35347998046875,0.1870899200439453,0.48146677017211914,-0.7986928224563599
1700810756995479800,2.363479736328125,0.33954811096191406,0.4457392692565918,-0.7314447164535522
1700810757005480000,2.37347998046875,0.30251407623291016,0.27968883514404297,-0.4554670453071594
1700810757015479800,2.383479736328125,0.20940113067626953,0.11867189407348633,-0.15785321593284607
1700810757025480000,2.39347998046875,0.1283435821533203,0.007966041564941406,0.06426803767681122
1700810757035479800,2.403479736328125,0.1920604705810547,0.00012445449829101562,0.16222381591796875
1700810757045480000,2.41347998046875,0.27842235565185547,0.07589912414550781,0.16517463326454163
1700810757055479800,2.423479736328125,0.3121671676635742,0.09871339797973633,0.11457741260528564
1700810757065480000,2.43347998046875,0.2472696304321289,0.050945281982421875,0.10210837423801422
1700810757075479800,2.443479736328125,0.056049346923828125,0.0122528076171875,0.1766406148672104
1700810757085480000,2.45347998046875,-0.12748146057128906,-0.01746654510498047,0.215182825922966
1700810757095479800,2.463479736328125,-0.31878089904785156,-0.013802051544189453,0.14999093115329742
1700810757105480000,2.47347998046875,-0.33977699279785156,0.005836009979248047,0.011579379439353943
1700810757115479800,2.483479736328125,-0.3689289093017578,-0.08319091796875,0.042754411697387695
1700810757125480000,2.49347998046875,-0.2900056838989258,-0.10111618041992188,0.023101329803466797
1700810757135479800,2.503479736328125,-0.1856698989868164,-0.07613039016723633,-0.06273585557937622
1700810757145480000,2.51347998046875,-0.10578632354736328,-0.10850000381469727,0.030690625309944153
1700810757155479800,2.523479736328125,-0.11118888854980469,-0.08083820343017578,0.12363997101783752
1700810757165480000,2.53347998046875,-0.011546134948730469,-0.07420730590820312,0.10665026307106018
1700810757175479800,2.543479736328125,0.020667076110839844,-0.06450271606445312,0.1351487785577774
1700810757185480000,2.55347998046875,0.1795635223388672,-0.025420665740966797,0.037369802594184875
1700810757195479800,2.563479736328125,0.2928447723388672,-0.02002573013305664,-0.024892449378967285
1700810757205480000,2.57347998046875,0.4726982116699219,0.03889322280883789,-0.10240896791219711
1700810757215479800,2.583479736328125,0.532318115234375,0.0818929672241211,-0.11628493666648865
1700810757225480000,2.59347998046875,0.3498554229736328,0.04617595672607422,-0.020842447876930237
1700810757235479800,2.603479736328125,0.12784194946289062,0.06966209411621094,-0.029820263385772705
1700810757245480000,2.61347998046875,-0.037383079528808594,0.1307830810546875,-0.04302637279033661
1700810757255479800,2.623479736328125,-0.20376968383789062,0.15624332427978516,-0.10745397210121155
1700810757265480000,2.63347998046875,-0.3505992889404297,0.10920572280883789,-0.109102763235569
1700810757275479800,2.643479736328125,-0.4455714225769043,0.0899510383605957,-0.12116553634405136
1700810757285480000,2.65347998046875,-0.46091794967651367,0.08580732345581055,-0.0039434731006622314
1700810757295479800,2.663479736328125,-0.43039798736572266,0.037323951721191406,0.08611525595188141
1700810757305480000,2.67347998046875,-0.33479785919189453,-0.0029726028442382812,0.06410568952560425
1700810757315479800,2.683479736328125,-0.19750690460205078,-0.01222085952758789,-0.002152353525161743
1700810757325480000,2.69347998046875,-0.10428810119628906,-0.015184402465820312,-0.030835434794425964
1700810757335479800,2.703479736328125,-0.09504985809326172,-0.06343793869018555,-0.07105740904808044
1700810757345480000,2.71347998046875,-0.09975337982177734,-0.052510738372802734,-0.021091744303703308
1700810757355479800,2.723479736328125,-0.11352348327636719,-0.04481172561645508,-0.04121755063533783
1700810757365480000,2.73347998046875,-0.1889934539794922,-0.006909370422363281,-0.013730719685554504
1700810757375479800,2.743479736328125,-0.25432872772216797,-0.01068735122680664,0.05067162215709686
1700810757385480000,2.75347998046875,-0.2714653015136719,0.006495952606201172,0.04947671294212341
1700810757395479800,2.763479736328125,-0.25276947021484375,0.0021924972534179688,0.12498891353607178
1700810757405480000,2.77347998046875,-0.21582603454589844,-0.03894662857055664,0.11237813532352448
1700810757415479800,2.783479736328125,0.10441112518310547,-0.08725118637084961,0.0565112829208374
1700810757425480000,2.79347998046875,0.3698406219482422,-0.11723756790161133,0.04528100788593292
1700810757435479800,2.803479736328125,0.4881887435913086,-0.12862586975097656,0.0026223137974739075
1700810757445480000,2.81347998046875,0.5478315353393555,-0.10828733444213867,0.04833265393972397
1700810757455479800,2.823479736328125,0.5277519226074219,-0.07397174835205078,0.1428726464509964
1700810757465480000,2.83347998046875,0.3565387725830078,-0.06475543975830078,0.08685235679149628
1700810757475479800,2.843479736328125,0.1680898666381836,0.015666484832763672,0.050806060433387756
1700810757485480000,2.85347998046875,-0.07161521911621094,0.08853769302368164,0.009992547333240509
1700810757495479800,2.863479736328125,-0.24851131439208984,0.09340572357177734,-0.006078734993934631
1700810757505479700,2.873479736328125,-0.3089780807495117,0.08069658279418945,-0.015112519264221191
1700810757515479600,2.8834794921875,-0.28975391387939453,0.04942512512207031,-0.006186872720718384
1700810757525479700,2.893479736328125,-0.23429584503173828,-0.01177072525024414,0.04073094576597214
1700810757535479600,2.9034794921875,-0.060784339904785156,-0.012631416320800781,0.009595505893230438
1700810757545479700,2.913479736328125,0.09254646301269531,-0.02130746841430664,0.04176788777112961
1700810757555479600,2.9234794921875,0.13587188720703125,-0.028122901916503906,0.01878931373357773
1700810757565479700,2.933479736328125,0.26165294647216797,0.0093231201171875,-0.11285671591758728
1700810757575479600,2.9434794921875,0.2788362503051758,0.050981998443603516,-0.19946342706680298
1700810757585479700,2.953479736328125,0.20467662811279297,0.09867143630981445,-0.17505860328674316
1700810757595479600,2.9634794921875,0.056031227111816406,0.1019744873046875,-0.19501419365406036
1700810757605479700,2.973479736328125,-0.07403945922851562,0.10456657409667969,-0.1085943728685379
1700810757615479600,2.9834794921875,-0.20555591583251953,0.07443523406982422,-0.09542495012283325
1700810757625479700,2.993479736328125,-0.3322620391845703,0.0514836311340332,-0.023093730211257935
1700810757635479600,3.0034794921875,-0.3616313934326172,0.04434061050415039,0.0264265276491642
1700810757645479700,3.013479736328125,-0.33515262603759766,0.004067897796630859,0.04529562592506409
1700810757655479600,3.0234794921875,-0.20780467987060547,-0.027835845947265625,0.11282383650541306
1700810757665479700,3.033479736328125,-0.005927085876464844,-0.041805267333984375,0.02436141110956669
1700810757675479600,3.0434794921875,0.18222999572753906,-0.07701301574707031,0.016047025099396706
1700810757685479700,3.053479736328125,0.2739849090576172,-0.09886598587036133,0.07678878307342529
1700810757695479600,3.0634794921875,0.2946138381958008,-0.10513830184936523,0.10227116197347641
1700810757705479700,3.073479736328125,0.2397909164428711,-0.04157590866088867,0.05388268828392029
1700810757715479600,3.0834794921875,0.15024566650390625,0.02981090545654297,0.0005881749093532562
1700810757725479700,3.093479736328125,0.03270435333251953,0.06850242614746094,-0.12051555514335632
1700810757735479600,3.1034794921875,-0.024759292602539062,0.09723234176635742,-0.21443404257297516
1700810757745479700,3.113479736328125,-0.05152320861816406,0.09557533264160156,-0.1997651755809784
1700810757755479600,3.1234794921875,0.10286140441894531,0.023494243621826172,-0.19147315621376038
1700810757765479400,3.1334794921875,0.21591472625732422,-0.004397869110107422,-0.0336405485868454
1700810757775479600,3.1434794921875,0.2957010269165039,-0.06655454635620117,0.13552096486091614
1700810757785479400,3.1534794921875,0.34290409088134766,-0.10847854614257812,0.17951425909996033
1700810757795479600,3.1634794921875,0.22858905792236328,-0.09995079040527344,0.19648441672325134
1700810757805479700,3.173479736328125,0.06290912628173828,-0.019465923309326172,0.19123657047748566
1700810757815479800,3.183479736328125,-0.1138906478881836,0.009575366973876953,0.05679389834403992
1700810757825479700,3.193479736328125,-0.25704193115234375,0.02613687515258789,-0.007361176423728466
1700810757835479800,3.203479736328125,-0.3892059326171875,0.08030271530151367,-0.05602569133043289
1700810757845479700,3.213479736328125,-0.4033069610595703,0.10379600524902344,-0.11065174639225006
1700810757855479800,3.223479736328125,-0.3761310577392578,0.08014154434204102,-0.11866729706525803
1700810757865479700,3.233479736328125,-0.3454151153564453,0.039496421813964844,-0.06260843575000763
1700810757875479800,3.243479736328125,-0.2531709671020508,-0.009476184844970703,-0.03747501224279404
1700810757885479700,3.253479736328125,-0.11145305633544922,-0.03819084167480469,-0.033069908618927
1700810757895479800,3.263479736328125,0.08027076721191406,-0.05894613265991211,0.014253128319978714
1700810757905479700,3.273479736328125,0.18334007263183594,-0.06999731063842773,0.044543348252773285
1700810757915479800,3.283479736328125,0.2392101287841797,-0.03913116455078125,0.0447828471660614
1700810757925479700,3.293479736328125,0.181488037109375,0.0014057159423828125,0.07560907304286957
1700810757935479800,3.303479736328125,0.14028644561767578,-0.007302761077880859,0.07600494474172592
1700810757945479700,3.313479736328125,0.061679840087890625,0.018629074096679688,0.07426701486110687
1700810757955479800,3.323479736328125,0.005207061767578125,-0.002552509307861328,0.061459846794605255
1700810757965479700,3.333479736328125,-0.029523849487304688,0.02440786361694336,-0.029317717999219894
1700810757975479800,3.343479736328125,-0.08593082427978516,0.04171895980834961,-0.08490823209285736
1700810757985479700,3.353479736328125,-0.15506553649902344,0.03640937805175781,-0.08741232752799988
1700810757995479800,3.363479736328125,-0.10582637786865234,0.038214683532714844,-0.0730053186416626
1700810758005480000,3.37347998046875,0.051873207092285156,0.04294395446777344,-0.07363908737897873
1700810758015479800,3.383479736328125,0.1988992691040039,0.04720115661621094,-0.13359364867210388
1700810758025480000,3.39347998046875,0.2240123748779297,0.03916501998901367,-0.14253975450992584
1700810758035479800,3.403479736328125,0.15459537506103516,0.06487798690795898,-0.06682517379522324
1700810758045480000,3.41347998046875,0.060482025146484375,0.037446022033691406,0.05159297212958336
1700810758055479800,3.423479736328125,-0.07069778442382812,-0.011612415313720703,0.10031316429376602
1700810758065480000,3.43347998046875,-0.1558675765991211,-0.046921730041503906,0.12126901000738144
1700810758075479800,3.443479736328125,-0.1219024658203125,-0.0548858642578125,0.0815485492348671
1700810758085480000,3.45347998046875,-0.060265541076660156,0.015615463256835938,-0.0028416533023118973
1700810758095479800,3.463479736328125,0.010083198547363281,-0.01292562484741211,-0.029790889471769333
1700810758105480000,3.47347998046875,0.0366363525390625,-0.013893604278564453,-0.03908771276473999
1700810758115479800,3.483479736328125,0.05348777770996094,-0.01942300796508789,0.023543957620859146
1700810758125480000,3.49347998046875,0.00601959228515625,-0.032701969146728516,0.11619827151298523
1700810758135479800,3.503479736328125,-0.03853034973144531,-0.0780181884765625,0.15228988230228424
1700810758145480000,3.51347998046875,-0.03009033203125,-0.06883382797241211,0.10388736426830292
1700810758155479800,3.523479736328125,0.03349781036376953,-0.06219196319580078,-0.016839344054460526
1700810758165480000,3.53347998046875,0.049017906188964844,-0.026494979858398438,-0.07404825091362
1700810758175479800,3.543479736328125,0.042972564697265625,0.05712080001831055,-0.11636018753051758
1700810758185480000,3.55347998046875,0.027649879455566406,0.10938453674316406,-0.16592881083488464
1700810758195479800,3.563479736328125,0.0769195556640625,0.10877370834350586,-0.10726400464773178
1700810758205480000,3.57347998046875,0.11938285827636719,0.06679725646972656,-0.02634776383638382
1700810758215479800,3.583479736328125,0.11450386047363281,0.07653093338012695,-0.013055442832410336
1700810758225480000,3.59347998046875,0.08888816833496094,0.08962345123291016,-0.02007978968322277
1700810758235479800,3.603479736328125,0.04476737976074219,0.039019107818603516,0.014062720350921154
1700810758245480000,3.61347998046875,0.015145301818847656,0.029188156127929688,-0.01156578864902258
1700810758255479800,3.623479736328125,-0.02186298370361328,0.0077457427978515625,-0.046964142471551895
1700810758265480000,3.63347998046875,-0.03307342529296875,0.004015922546386719,-0.0350489541888237
1700810758275479800,3.643479736328125,-0.025795936584472656,0.044553279876708984,-0.02919613942503929
1700810758285480000,3.65347998046875,-0.047771453857421875,0.040513038635253906,-0.06152677536010742
1700810758295479800,3.663479736328125,-0.04854011535644531,0.06610536575317383,-0.06485270708799362
1700810758305480000,3.67347998046875,-0.049483299255371094,0.06776666641235352,-0.0685465931892395
1700810758315479800,3.683479736328125,-0.05053997039794922,0.026236534118652344,0.026980070397257805
1700810758325480000,3.69347998046875,-0.030061721801757812,-0.043701171875,0.07493716478347778
1700810758335479800,3.703479736328125,-0.052559852600097656,-0.05159425735473633,0.11479571461677551
1700810758345480000,3.71347998046875,-0.0627889633178711,-0.055228233337402344,0.1074490025639534
1700810758355479800,3.723479736328125,-0.07035064697265625,-0.06413698196411133,0.04224909842014313
1700810758365480000,3.73347998046875,-0.10409259796142578,-0.00868082046508789,-0.04933350533246994
1700810758375479800,3.743479736328125,-0.0947885513305664,0.027710437774658203,-0.07218042016029358
1700810758385480000,3.75347998046875,-0.08113479614257812,0.028967857360839844,-0.03517229110002518
1700810758395479800,3.763479736328125,-0.024855613708496094,-0.026402950286865234,-0.012504530139267445
1700810758405480000,3.77347998046875,0.04997444152832031,-0.00170135498046875,0.024301644414663315
1700810758415479800,3.783479736328125,0.1579427719116211,0.004531383514404297,0.10853125154972076
1700810758425480000,3.79347998046875,0.19426345825195312,-0.003916740417480469,0.064922995865345
1700810758435479800,3.803479736328125,0.21926403045654297,-0.04224967956542969,0.05332257226109505
1700810758445480000,3.81347998046875,0.20673084259033203,-0.04365062713623047,0.08849924802780151
1700810758455479800,3.823479736328125,0.1947650909423828,-0.02689504623413086,0.05935542285442352
1700810758465480000,3.83347998046875,0.14245223999023438,0.0059814453125,-0.008406739681959152
1700810758475479800,3.843479736328125,0.04715442657470703,0.03866434097290039,0.018534021452069283
1700810758485480000,3.85347998046875,-0.05051898956298828,0.05216026306152344,0.010160890407860279
1700810758495479800,3.863479736328125,-0.14619922637939453,0.0615839958190918,-0.035768795758485794
1700810758505480000,3.87347998046875,-0.2068033218383789,0.06052064895629883,-0.06341726332902908
1700810758515479800,3.883479736328125,-0.13915443420410156,0.03975343704223633,-0.06301204860210419
1700810758525480000,3.89347998046875,-0.024521827697753906,-0.0033478736877441406,-0.07946370542049408
1700810758535479800,3.903479736328125,0.008358955383300781,-0.021877765655517578,-0.023107610642910004
1700810758545480000,3.91347998046875,0.06050395965576172,-0.07173395156860352,0.13354045152664185
1700810758555479800,3.923479736328125,0.0914764404296875,-0.10310029983520508,0.18561740219593048
1700810758565480000,3.93347998046875,0.11122894287109375,-0.09749126434326172,0.1581723690032959
1700810758575479800,3.943479736328125,0.05772590637207031,-0.024178504943847656,0.13319091498851776
1700810758585480000,3.95347998046875,-0.040350914001464844,0.030735015869140625,0.05456438660621643
1700810758595479800,3.963479736328125,-0.12574291229248047,0.053243160247802734,-0.0012727957218885422
1700810758605480000,3.97347998046875,-0.11026763916015625,0.06082725524902344,-0.05494081974029541
1700810758615479800,3.983479736328125,-0.11411094665527344,0.06392049789428711,-0.13714563846588135
1700810758625480000,3.99347998046875,-0.13026046752929688,0.08676719665527344,-0.2231929749250412
1700810758635479800,4.003479736328125,-0.13015460968017578,0.06502151489257812,-0.1555640697479248
1700810758645480000,4.01347998046875,-0.13792705535888672,0.0900115966796875,-0.0388648621737957
1700810758655479800,4.023479736328125,-0.060128211975097656,0.1092367172241211,0.022170331329107285
1700810758665480000,4.03347998046875,0.012356758117675781,0.10007572174072266,0.03758168965578079
1700810758675479800,4.043479736328125,0.035037994384765625,0.08797311782836914,0.057817839086055756
1700810758685480000,4.05347998046875,0.012780189514160156,0.10120487213134766,-0.03738192841410637
1700810758695479800,4.063479736328125,0.03883647918701172,0.11396503448486328,-0.1357540339231491
1700810758705480000,4.07347998046875,0.03864288330078125,0.11430597305297852,-0.13173750042915344
1700810758715479800,4.083479736328125,0.033499717712402344,0.10506200790405273,-0.2369096428155899
1700810758725480000,4.09347998046875,0.07361221313476562,0.08456707000732422,-0.22666430473327637
1700810758735479800,4.103479736328125,0.06566715240478516,0.1293315887451172,-0.1699162721633911
1700810758745480000,4.11347998046875,0.055511474609375,0.09415864944458008,-0.05916048213839531
1700810758755479800,4.123479736328125,0.040902137756347656,0.02516651153564453,0.031619127839803696
1700810758765480000,4.13347998046875,0.02673625946044922,-0.003917694091796875,0.06999810039997101
1700810758775479800,4.143479736328125,-0.06825733184814453,-0.06037092208862305,0.1119711622595787
1700810758785480000,4.15347998046875,-0.09824657440185547,-0.06958961486816406,0.1334780603647232
1700810758795479800,4.163479736328125,-0.11640071868896484,-0.08574199676513672,0.1124994233250618
1700810758805480000,4.17347998046875,-0.06344890594482422,-0.09581995010375977,0.09306640177965164
1700810758815479800,4.183479736328125,-0.014019012451171875,-0.09908390045166016,0.07466916739940643
1700810758825480000,4.19347998046875,0.05607795715332031,-0.07443380355834961,0.086246058344841
1700810758835479800,4.203479736328125,0.17586517333984375,-0.022383689880371094,0.022623920813202858
1700810758845480000,4.21347998046875,0.21920204162597656,-0.0879354476928711,0.030922232195734978
1700810758855479800,4.223479736328125,0.11960029602050781,-0.07815408706665039,0.06391294300556183
1700810758865480000,4.23347998046875,0.09053897857666016,-0.022480487823486328,0.09080196917057037
1700810758875479800,4.243479736328125,0.03838157653808594,-0.0042514801025390625,0.12367767840623856
1700810758885480000,4.25347998046875,0.0014705657958984375,-0.03549385070800781,0.05562836676836014
1700810758895479800,4.263479736328125,0.02479076385498047,-0.05545854568481445,0.03858809173107147
1700810758905480000,4.27347998046875,0.026300430297851562,-0.05818891525268555,0.04450096935033798
1700810758915479800,4.283479736328125,0.029346466064453125,-0.023451805114746094,0.0419108048081398
1700810758925480000,4.29347998046875,0.017423629760742188,-0.03310823440551758,0.057504236698150635
1700810758935479800,4.303479736328125,0.02381134033203125,-0.026886463165283203,0.07564853131771088
1700810758945480000,4.31347998046875,0.020178794860839844,0.00408172607421875,0.09322261810302734
1700810758955479800,4.323479736328125,0.03564167022705078,-0.007938385009765625,0.04860708862543106
1700810758965480000,4.33347998046875,0.0991659164428711,-0.013095855712890625,-0.042373452335596085
1700810758975479800,4.343479736328125,0.1272287368774414,-0.011895179748535156,-0.07157368212938309
1700810758985480000,4.35347998046875,0.13924503326416016,-0.026347637176513672,-0.08653320372104645
1700810758995479800,4.363479736328125,0.046665191650390625,-0.018212318420410156,-0.06310892850160599
1700810759005480000,4.37347998046875,-0.07655143737792969,-0.01812458038330078,0.04511135444045067
1700810759015479800,4.383479736328125,-0.11831378936767578,0.013013362884521484,0.08182269334793091
1700810759025480000,4.39347998046875,-0.0815277099609375,0.013855934143066406,0.13468509912490845
1700810759035479800,4.403479736328125,-0.07885265350341797,0.00856924057006836,0.08802343904972076
1700810759045480000,4.41347998046875,-0.10299205780029297,0.023288249969482422,0.05889993906021118
1700810759055479800,4.423479736328125,-0.10595703125,0.06502151489257812,0.029570817947387695
1700810759065480000,4.43347998046875,-0.10678958892822266,0.06651639938354492,0.028958678245544434
1700810759075479800,4.443479736328125,-0.050522804260253906,0.08781909942626953,-0.12951135635375977
1700810759085480000,4.45347998046875,-0.013551712036132812,0.06627941131591797,-0.11817863583564758
1700810759095479800,4.463479736328125,0.011501312255859375,0.06859159469604492,-0.1577700525522232
1700810759105480000,4.47347998046875,0.08956336975097656,0.041579246520996094,-0.1311921328306198
1700810759115479800,4.483479736328125,0.1081399917602539,0.07136106491088867,-0.07077625393867493
1700810759125480000,4.49347998046875,0.07477664947509766,0.04235553741455078,0.019871260970830917
1700810759135479800,4.503479736328125,0.06834030151367188,0.017068862915039062,0.10370747745037079
1700810759145480000,4.51347998046875,0.047966957092285156,0.005387783050537109,0.13217808306217194
1700810759155479800,4.523479736328125,0.0037584304809570312,0.0006952285766601562,0.06959229707717896
1700810759165480000,4.53347998046875,-0.028601646423339844,0.04170799255371094,-0.035492461174726486
1700810759175479800,4.543479736328125,-0.008687019348144531,0.06666994094848633,-0.11405922472476959
1700810759185480000,4.55347998046875,0.006110191345214844,0.07068586349487305,-0.10173662006855011
1700810759195479800,4.563479736328125,-0.04615974426269531,0.04123401641845703,-0.061399202793836594
1700810759205480000,4.57347998046875,-0.098297119140625,0.028316497802734375,-0.01290273666381836
1700810759215479800,4.583479736328125,-0.09547996520996094,0.041950225830078125,0.07253989577293396
1700810759225480000,4.59347998046875,-0.15275859832763672,-0.020588397979736328,0.06153495982289314
1700810759235479800,4.603479736328125,-0.06913185119628906,0.015661239624023438,0.07515066862106323
1700810759245479700,4.613479736328125,-0.005032539367675781,0.021445274353027344,0.04218202084302902
1700810759255479800,4.623479736328125,0.01605224609375,0.015091419219970703,0.020438391715288162
1700810759265479700,4.633479736328125,0.0350799560546875,0.012912750244140625,-0.03810746595263481
1700810759275479800,4.643479736328125,0.009027481079101562,0.031538963317871094,-0.060265082865953445
1700810759285479700,4.653479736328125,-0.038443565368652344,0.04515218734741211,-0.04711845517158508
1700810759295479800,4.663479736328125,-0.1049203872680664,0.04654216766357422,-0.03305851295590401
1700810759305479700,4.673479736328125,-0.1045989990234375,0.04598522186279297,-0.035077303647994995
1700810759315479800,4.683479736328125,-0.10943222045898438,0.02454996109008789,0.036258481442928314
1700810759325479700,4.693479736328125,-0.08628273010253906,-0.007515430450439453,0.08125614374876022
1700810759335479800,4.703479736328125,-0.020998001098632812,-0.035466670989990234,0.08355462551116943
1700810759345479700,4.713479736328125,0.07726860046386719,-0.033718109130859375,0.011443328112363815
1700810759355479800,4.723479736328125,0.17758750915527344,-0.014591217041015625,0.042723581194877625
1700810759365480000,4.73347998046875,0.21590328216552734,-0.029448509216308594,0.02315685898065567
1700810759375479800,4.743479736328125,0.21204757690429688,-0.010057926177978516,-0.04098419100046158
1700810759385480000,4.75347998046875,0.17580890655517578,0.012077808380126953,-0.029195699840784073
1700810759395479800,4.763479736328125,0.09021854400634766,0.04929065704345703,0.04135769605636597
1700810759405480000,4.77347998046875,-0.04739093780517578,0.061354637145996094,0.010827537626028061
1700810759415479800,4.783479736328125,-0.13927650451660156,0.0514988899230957,0.0008205249905586243
1700810759425480000,4.79347998046875,-0.107421875,0.028670310974121094,0.02240355685353279
1700810759435479800,4.803479736328125,-0.07174396514892578,0.019539833068847656,0.029756106436252594
1700810759445480000,4.81347998046875,-0.0033807754516601562,0.009510993957519531,0.011709727346897125
1700810759455479800,4.823479736328125,0.04062080383300781,0.005026340484619141,0.020061224699020386
1700810759465480000,4.83347998046875,0.03196239471435547,0.00052642822265625,-0.007822506129741669
1700810759475479800,4.843479736328125,0.09034538269042969,-0.011154651641845703,-0.021736614406108856
1700810759485480000,4.85347998046875,0.09409046173095703,0.029061317443847656,-0.021154288202524185
1700810759495479800,4.863479736328125,0.04331493377685547,0.02038860321044922,0.006900280714035034
1700810759505480000,4.87347998046875,0.04336357116699219,0.020299911499023438,0.006946459412574768
1700810759515479800,4.883479736328125,-0.12134742736816406,0.019430160522460938,0.04931201785802841
1700810759525480000,4.89347998046875,-0.17833423614501953,0.025784015655517578,0.04760974645614624
1700810759535479800,4.903479736328125,-0.1184244155883789,-0.02456188201904297,0.050601325929164886
1700810759545480000,4.91347998046875,-0.1383190155029297,-0.016022682189941406,-0.008248776197433472
1700810759555479800,4.923479736328125,-0.051428794860839844,0.018206119537353516,0.042031943798065186
1700810759565480000,4.93347998046875,0.0201873779296875,-0.00096893310546875,0.09621011465787888
1700810759575479800,4.943479736328125,0.060375213623046875,-0.005202770233154297,0.017498545348644257
1700810759585480000,4.95347998046875,0.05280590057373047,0.0023131370544433594,0.03248333930969238
1700810759595479800,4.963479736328125,0.026641845703125,0.004015445709228516,0.055565088987350464
1700810759605480000,4.97347998046875,-0.0036373138427734375,-0.012266159057617188,0.06965294480323792
1700810759615479800,4.983479736328125,-0.05258750915527344,-0.007886886596679688,0.07451557368040085
1700810759625480000,4.99347998046875,-0.05102348327636719,0.005626201629638672,0.049007490277290344
1700810759635479800,5.003479736328125,0.03417396545410156,0.009842395782470703,-0.016077131032943726
1700810759645480000,5.01347998046875,0.10941314697265625,0.03389310836791992,-0.07121653854846954
1700810759655479800,5.023479736328125,0.18654823303222656,0.0325169563293457,-0.07356339693069458
1700810759665480000,5.03347998046875,0.2757129669189453,0.026278972625732422,-0.11305603384971619
1700810759675479800,5.043479736328125,0.30312347412109375,0.04788017272949219,-0.08120309561491013
1700810759685480000,5.05347998046875,0.2168569564819336,0.04326057434082031,-0.020374387502670288
1700810759695479800,5.063479736328125,-0.09051704406738281,0.045379638671875,0.08352656662464142
1700810759705480000,5.07347998046875,-0.0877838134765625,0.040429115295410156,0.08215893059968948
1700810759715479800,5.083479736328125,-0.2664937973022461,0.03452157974243164,0.048180967569351196
1700810759725480000,5.09347998046875,-0.3115196228027344,0.026907920837402344,0.04185396432876587
1700810759735479800,5.103479736328125,-0.3265953063964844,0.042978763580322266,-0.0024934187531471252
1700810759745480000,5.11347998046875,-0.20431041717529297,0.0330653190612793,-0.052307114005088806
1700810759755479800,5.123479736328125,-0.02850818634033203,0.04993772506713867,-0.12247838079929352
1700810759765480000,5.13347998046875,0.13683128356933594,0.030119895935058594,-0.12125672399997711
1700810759775479800,5.143479736328125,0.18741130828857422,0.02435588836669922,-0.04734773933887482
1700810759785480000,5.15347998046875,0.12891578674316406,-0.024038314819335938,0.041151516139507294
1700810759795479800,5.163479736328125,0.062313079833984375,-0.010446548461914062,0.11691081523895264
1700810759805480000,5.17347998046875,-0.058177947998046875,-0.00858449935913086,0.13811564445495605
1700810759815479800,5.183479736328125,-0.0775747299194336,-0.005361080169677734,0.120866559445858
1700810759825480000,5.19347998046875,-0.0901784896850586,0.0009260177612304688,0.10330884158611298
1700810759835479800,5.203479736328125,-0.055642127990722656,0.018159866333007812,0.07330883294343948
1700810759845480000,5.21347998046875,0.03765678405761719,0.025452136993408203,-0.0095323845744133
1700810759855479800,5.223479736328125,0.10587692260742188,0.039652347564697266,-0.09209785610437393
1700810759865480000,5.23347998046875,0.13030529022216797,0.06711435317993164,-0.14967691898345947
1700810759875479800,5.243479736328125,0.09725475311279297,0.07789802551269531,-0.09409692138433456
1700810759885480000,5.25347998046875,0.10066413879394531,0.027884960174560547,-0.016669251024723053
1700810759895479800,5.263479736328125,0.10487079620361328,-0.023547649383544922,0.09595715999603271
1700810759905480000,5.27347998046875,0.08882617950439453,-0.07747173309326172,0.1489063799381256
1700810759915479800,5.283479736328125,0.056954383850097656,-0.09489011764526367,0.15353170037269592
1700810759925480000,5.29347998046875,0.013831138610839844,-0.058596134185791016,0.09291896224021912
1700810759935479800,5.303479736328125,0.01659107208251953,-0.06369876861572266,0.09659487754106522
1700810759945480000,5.31347998046875,-0.09346389770507812,0.05624675750732422,-0.09682444483041763
1700810759955479800,5.323479736328125,-0.15859222412109375,0.10541868209838867,-0.126123309135437
1700810759965480000,5.33347998046875,-0.1527395248413086,0.10350942611694336,-0.05268749222159386
1700810759975479800,5.343479736328125,-0.15270614624023438,0.07001638412475586,0.06577610969543457
1700810759985480000,5.35347998046875,-0.1269998550415039,0.01620960235595703,0.16142696142196655
1700810759995479800,5.363479736328125,-0.05627727508544922,-0.031946659088134766,0.18060119450092316
1700810760005480000,5.37347998046875,0.07153797149658203,-0.06750679016113281,0.12249124050140381
1700810760015479800,5.383479736328125,0.1253528594970703,-0.05565977096557617,0.026713088154792786
1700810760025480000,5.39347998046875,0.1320657730102539,-0.02614116668701172,-0.06664630770683289
1700810760035479800,5.403479736328125,0.10402584075927734,0.03956460952758789,-0.11873466521501541
1700810760045480000,5.41347998046875,-0.011816024780273438,0.09427738189697266,-0.20195436477661133
1700810760055479800,5.423479736328125,-0.053160667419433594,0.11498737335205078,-0.05828896537423134
1700810760065480000,5.43347998046875,-0.11411380767822266,0.08152484893798828,-0.032281242311000824
1700810760075479800,5.443479736328125,-0.2449483871459961,0.07049131393432617,0.070168636739254
1700810760085480000,5.45347998046875,-0.23763751983642578,0.06798458099365234,0.1755068004131317
1700810760095479800,5.463479736328125,-0.12601470947265625,0.0027289390563964844,0.14379677176475525
1700810760105480000,5.47347998046875,-0.1280345916748047,0.006498813629150391,0.13959947228431702
1700810760115479800,5.483479736328125,0.11844062805175781,-0.06789684295654297,-0.014980852603912354
1700810760125480000,5.49347998046875,0.1353750228881836,-0.0016546249389648438,-0.07122765481472015
1700810760135479800,5.503479736328125,0.1006937026977539,0.031525611877441406,-0.08352278172969818
1700810760145480000,5.51347998046875,0.01900196075439453,-0.0039010047912597656,-0.019954264163970947
1700810760155479800,5.523479736328125,-0.059650421142578125,-0.011708259582519531,0.04858472943305969
1700810760165480000,5.53347998046875,-0.1598052978515625,-0.007592201232910156,0.1064469963312149
1700810760175479800,5.543479736328125,-0.19579410552978516,0.014166831970214844,0.1422426700592041
1700810760185480000,5.55347998046875,-0.19429779052734375,-0.005671501159667969,0.14668458700180054
1700810760195479800,5.563479736328125,-0.10769844055175781,-0.0594639778137207,0.12310704588890076
1700810760205480000,5.57347998046875,0.013643264770507812,-0.03931427001953125,0.07407543063163757
1700810760215479800,5.583479736328125,0.10564899444580078,-0.05158710479736328,-0.04153568297624588
1700810760225480000,5.59347998046875,0.27193260192871094,0.0006909370422363281,-0.1139184981584549
1700810760235479800,5.603479736328125,0.33577442169189453,0.06159019470214844,-0.12051088362932205
1700810760245480000,5.61347998046875,0.3007678985595703,0.06905794143676758,-0.10215894132852554
1700810760255479800,5.623479736328125,0.17209911346435547,0.06546211242675781,-0.06388750672340393
1700810760265480000,5.63347998046875,-0.000518798828125,0.05185651779174805,0.03437426686286926
1700810760275479800,5.643479736328125,-0.12211990356445312,0.048883914947509766,0.053355589509010315
1700810760285480000,5.65347998046875,-0.13631629943847656,0.0824441909790039,-0.035334646701812744
1700810760295479800,5.663479736328125,-0.0774831771850586,0.09424686431884766,-0.07860183715820312
1700810760305480000,5.67347998046875,-0.03665733337402344,0.07243680953979492,-0.08209975063800812
1700810760315479800,5.683479736328125,0.015216827392578125,0.04042673110961914,-0.050556764006614685
1700810760325480000,5.69347998046875,0.009289741516113281,0.030675411224365234,0.035415008664131165
1700810760335479800,5.703479736328125,0.03448772430419922,0.020944595336914062,0.09457212686538696
1700810760345480200,5.713480224609375,0.062331199645996094,-0.0012536048889160156,0.02824731171131134
1700810760355480000,5.72347998046875,0.15040206909179688,-0.0074558258056640625,-0.049624159932136536
1700810760365480200,5.733480224609375,0.15286540985107422,0.0019221305847167969,-0.07844123244285583
1700810760375480000,5.74347998046875,0.05336284637451172,0.0022478103637695312,-0.11440891772508621
1700810760385480200,5.753480224609375,-0.09057903289794922,0.046176910400390625,-0.01481427252292633
1700810760395480000,5.76347998046875,-0.25784778594970703,0.038852691650390625,0.04155133664608002
1700810760405480200,5.773480224609375,-0.37305259704589844,0.047045230865478516,0.11348769068717957
1700810760415480000,5.78347998046875,-0.3532695770263672,0.04355812072753906,0.14514540135860443
1700810760425480200,5.793480224609375,-0.21561622619628906,-0.03797626495361328,0.15036870539188385
1700810760435480000,5.80347998046875,-0.02457714080810547,-0.049376487731933594,0.11874724924564362
1700810760445480200,5.813480224609375,0.17740631103515625,-0.058887481689453125,0.06063801050186157
1700810760455479800,5.823479736328125,0.39850330352783203,-0.08751487731933594,0.01864449679851532
1700810760465480000,5.83347998046875,0.4913444519042969,-0.07019472122192383,-0.06947174668312073
1700810760475479800,5.843479736328125,0.3851442337036133,-0.008858680725097656,-0.08103403449058533
1700810760485480000,5.85347998046875,0.14017105102539062,0.021561622619628906,-0.015147164463996887
1700810760495479800,5.863479736328125,-0.06696319580078125,0.03890848159790039,-0.0004870593547821045
1700810760505480000,5.87347998046875,-0.21094417572021484,0.06663227081298828,0.0055479854345321655
1700810760515479800,5.883479736328125,-0.29554080963134766,0.06888914108276367,0.03332038223743439
1700810760525480000,5.89347998046875,-0.3217935562133789,0.04276466369628906,0.0929679125547409
1700810760535479800,5.903479736328125,-0.29024314880371094,0.020440101623535156,0.07388488948345184
1700810760545480000,5.91347998046875,-0.15268421173095703,-0.010605812072753906,0.08021219074726105
1700810760555479800,5.923479736328125,0.03613758087158203,-0.01989269256591797,0.05415976047515869
1700810760565480000,5.93347998046875,0.24799251556396484,-0.0634765625,0.022712618112564087
1700810760575479800,5.943479736328125,0.34754371643066406,-0.06926679611206055,-0.00005933642387390137
1700810760585480000,5.95347998046875,0.3167581558227539,-0.032102108001708984,0.003787994384765625
1700810760595479800,5.963479736328125,0.21128082275390625,-0.0056171417236328125,0.01181948184967041
1700810760605480000,5.97347998046875,0.05731201171875,0.08229589462280273,-0.10415990650653839
1700810760615479800,5.983479736328125,-0.04752826690673828,0.12483453750610352,-0.10757891833782196
1700810760625480000,5.99347998046875,-0.1401042938232422,0.1261134147644043,-0.06650705635547638
1700810760635479800,6.003479736328125,-0.28812599182128906,0.11612939834594727,-0.011540941894054413
1700810760645479700,6.013479736328125,-0.35363006591796875,0.08468103408813477,0.05998070538043976
1700810760655479600,6.0234794921875,-0.2911529541015625,0.04131507873535156,0.054957762360572815
1700810760665479700,6.033479736328125,-0.14390087127685547,0.01245737075805664,0.060868605971336365
1700810760675479600,6.0434794921875,-0.04076576232910156,-0.03135538101196289,0.03802680969238281
1700810760685480200,6.053480224609375,0.02862834930419922,-0.014920234680175781,0.015535563230514526
1700810760695480300,6.063480224609375,0.026475906372070312,0.0010428428649902344,0.00884614884853363
1700810760705480000,6.07347998046875,-0.013660430908203125,0.009250640869140625,-0.058126747608184814
1700810760715479800,6.083479736328125,-0.031948089599609375,0.01926136016845703,-0.04964972287416458
1700810760725480000,6.09347998046875,-0.04777050018310547,0.045891761779785156,-0.023969054222106934
1700810760735479800,6.103479736328125,-0.04435157775878906,0.02451467514038086,0.003142833709716797
1700810760745480000,6.11347998046875,-0.024225234985351562,0.020009517669677734,0.04646335542201996
1700810760755480000,6.12347998046875,0.05332469940185547,0.003570079803466797,0.08125759661197662
1700810760765480200,6.133480224609375,0.1546335220336914,-0.0389256477355957,0.1537390500307083
1700810760775480000,6.14347998046875,0.26329612731933594,-0.06502771377563477,0.17046718299388885
1700810760785480200,6.153480224609375,0.2838554382324219,-0.08483076095581055,0.1440010815858841
1700810760795637000,6.163636962890625,0.2762489318847656,-0.0649418830871582,0.0831492692232132
1700810760805636900,6.173636962890625,0.1805257797241211,0.0019555091857910156,-0.010740295052528381
1700810760815637000,6.183636962890625,0.04931354522705078,0.07045507431030273,-0.09696692228317261
1700810760825636900,6.193636962890625,-0.05526542663574219,0.1240992546081543,-0.13970643281936646
1700810760835637000,6.203636962890625,-0.11195182800292969,0.11560487747192383,-0.12170111387968063
1700810760845636900,6.213636962890625,-0.14751625061035156,0.08401107788085938,-0.1057407408952713
1700810760855637000,6.223636962890625,-0.12134170532226562,0.05573415756225586,0.0070188045501708984
1700810760865636900,6.233636962890625,-0.11000728607177734,0.02588033676147461,0.09006576240062714
1700810760875637000,6.243636962890625,-0.07252216339111328,0.003521442413330078,0.13595381379127502
1700810760885636900,6.253636962890625,-0.0204010009765625,-0.007413387298583984,0.13764688372612
1700810760895637000,6.263636962890625,0.0033807754516601562,-0.016711711883544922,0.0950707197189331
1700810760905636900,6.273636962890625,0.018134117126464844,0.016003131866455078,-0.060351453721523285
1700810760915637000,6.283636962890625,-0.019367218017578125,0.09575319290161133,-0.15343816578388214
1700810760925636900,6.293636962890625,-0.13074398040771484,0.11742639541625977,-0.1796504706144333
1700810760935637000,6.303636962890625,-0.24457359313964844,0.09382009506225586,-0.13269859552383423
1700810760945636900,6.313636962890625,-0.25843048095703125,0.07381296157836914,-0.05378390848636627
1700810760955637000,6.323636962890625,-0.2015361785888672,0.017531871795654297,0.09277896583080292
1700810760965636900,6.333636962890625,-0.11959648132324219,-0.053137779235839844,0.15330752730369568
1700810760975637000,6.343636962890625,0.037917137145996094,-0.10994482040405273,0.15974017977714539
1700810760985636400,6.35363623046875,0.16862106323242188,-0.11326074600219727,0.15361277759075165
1700810760995636200,6.36363623046875,0.22085285186767578,-0.07215404510498047,0.056707531213760376
1700810761005636600,6.37363671875,0.18332195281982422,-0.01900005340576172,-0.023716822266578674
1700810761015636700,6.38363671875,0.18295001983642578,0.05814647674560547,-0.09573036432266235
1700810761025636600,6.39363671875,0.1953744888305664,0.07872533798217773,-0.0796188935637474
1700810761035636700,6.40363671875,0.1722555160522461,0.026837825775146484,-0.033855654299259186
1700810761045636600,6.41363671875,0.12522506713867188,0.013258934020996094,0.08446823060512543
1700810761055636700,6.42363671875,0.049492835998535156,0.021229267120361328,0.16270138323307037
1700810761065636600,6.43363671875,-0.021572113037109375,0.041452884674072266,0.15301790833473206
1700810761075636700,6.44363671875,-0.08563423156738281,0.026112079620361328,0.07089287042617798
1700810761085636600,6.45363671875,-0.13806915283203125,0.047284603118896484,-0.014812961220741272
1700810761095636700,6.46363671875,-0.03056049346923828,0.01900482177734375,-0.04912862181663513
1700810761105636600,6.47363671875,-0.031114578247070312,0.02005147933959961,-0.04978036880493164
1700810761115636700,6.48363671875,-0.0007305145263671875,0.016635894775390625,-0.06919453293085098
1700810761125636600,6.49363671875,0.017905235290527344,0.04629659652709961,-0.04441636800765991
1700810761135636700,6.50363671875,0.03021240234375,0.04085731506347656,-0.055490411818027496
1700810761145636600,6.51363671875,-0.043143272399902344,0.05597639083862305,-0.03978651016950607
1700810761155636700,6.52363671875,-0.1567058563232422,0.0989084243774414,-0.054959237575531006
1700810761165636600,6.53363671875,-0.2557830810546875,0.12249374389648438,-0.020786046981811523
1700810761175636700,6.54363671875,-0.25490856170654297,0.09934473037719727,-0.002003297209739685
1700810761185636600,6.55363671875,-0.2239694595336914,0.025485515594482422,0.04294964671134949
1700810761195636700,6.56363671875,-0.0840463638305664,-0.005562305450439453,0.08329100906848907
1700810761205636600,6.57363671875,0.07407665252685547,-0.03962135314941406,0.07531492412090302
1700810761215636700,6.58363671875,0.1624584197998047,-0.020431995391845703,0.021931111812591553
1700810761225636600,6.59363671875,0.22010326385498047,-0.011571884155273438,-0.015920177102088928
1700810761235636700,6.60363671875,0.17578411102294922,-0.009358406066894531,-0.019142359495162964
1700810761245636600,6.61363671875,0.13718318939208984,-0.008871078491210938,0.037707507610321045
1700810761255636700,6.62363671875,0.0703878402709961,0.009809017181396484,0.019409775733947754
1700810761265636600,6.63363671875,-0.03677082061767578,0.05660867691040039,-0.016309767961502075
1700810761275636700,6.64363671875,-0.10829448699951172,0.039304256439208984,0.012079864740371704
1700810761285636600,6.65363671875,-0.11820411682128906,0.027996540069580078,0.058429986238479614
1700810761295636700,6.66363671875,-0.06177330017089844,-0.008298397064208984,0.06963849067687988
1700810761305636600,6.67363671875,0.03004932403564453,-0.03405427932739258,0.04498480260372162
1700810761315636700,6.68363671875,0.10955524444580078,-0.04245805740356445,0.06284633278846741
1700810761325636600,6.69363671875,0.10071659088134766,0.0036773681640625,0.020686522126197815
1700810761335636700,6.70363671875,0.04480743408203125,0.029147624969482422,-0.033300355076789856
1700810761345636600,6.71363671875,-0.0032978057861328125,0.0391387939453125,0.01929652690887451
1700810761355636700,6.72363671875,-0.008158683776855469,0.0057888031005859375,0.030203700065612793
1700810761365636600,6.73363671875,-0.00597381591796875,-0.01055002212524414,0.05810278654098511
1700810761375636700,6.74363671875,0.06551456451416016,0.004444599151611328,-0.006658583879470825
1700810761385636600,6.75363671875,0.0867605209350586,0.02894306182861328,0.005482092499732971
1700810761395636700,6.76363671875,0.041342735290527344,0.03596925735473633,0.0062431395053863525
1700810761405636600,6.77363671875,-0.025229454040527344,0.0662078857421875,-0.014772191643714905
1700810761415636700,6.78363671875,-0.007895469665527344,0.07711505889892578,-0.01014670729637146
1700810761425636600,6.79363671875,-0.03847026824951172,0.07129240036010742,-0.021782204508781433
1700810761435636700,6.80363671875,-0.052491188049316406,0.04668998718261719,-0.0497971773147583
1700810761445636600,6.81363671875,-0.05471515655517578,0.05832672119140625,-0.006228804588317871
1700810761455636700,6.82363671875,-0.06670093536376953,0.04639148712158203,-0.015977323055267334
1700810761465636600,6.83363671875,-0.08376598358154297,0.02544116973876953,-0.0265035480260849
1700810761475636700,6.84363671875,-0.027083396911621094,0.014975547790527344,-0.021051406860351562
1700810761485636600,6.85363671875,0.043402671813964844,-0.006422996520996094,-0.015479311347007751
1700810761495636700,6.86363671875,0.05603599548339844,-0.000736236572265625,0.006553947925567627
1700810761505636600,6.87363671875,0.1094808578491211,-0.02395343780517578,0.05869390070438385
1700810761515636700,6.88363671875,0.08923149108886719,-0.01941204071044922,0.05822569131851196
1700810761525636600,6.89363671875,0.03867149353027344,-0.018859386444091797,0.07414528727531433
1700810761535636700,6.90363671875,-0.0015344619750976562,0.008899211883544922,0.07069148123264313
1700810761545636600,6.91363671875,-0.03162956237792969,-0.007483482360839844,-0.0007790178060531616
1700810761555636700,6.92363671875,-0.037810325622558594,0.050400733947753906,-0.021609634160995483
1700810761565636600,6.93363671875,-0.027757644653320312,0.0278778076171875,0.014517620205879211
1700810761575636700,6.94363671875,0.007870674133300781,0.028380393981933594,0.03912687301635742
1700810761585636900,6.953636962890625,0.04988861083984375,0.020893096923828125,0.05116203427314758
1700810761595636700,6.96363671875,0.15597248077392578,0.00017023086547851562,0.09035041928291321
1700810761605636900,6.973636962890625,0.1855173110961914,-0.0254974365234375,0.07025834918022156
1700810761615636700,6.98363671875,0.13439559936523438,-0.004715919494628906,0.05452245473861694
1700810761625636900,6.993636962890625,0.039505958557128906,-0.016009807586669922,-0.003226548433303833
1700810761635636700,7.00363671875,-0.0881357192993164,-0.000018596649169921875,-0.05079524964094162
1700810761645636900,7.013636962890625,-0.13895511627197266,0.044329166412353516,-0.09636867046356201
1700810761655636700,7.02363671875,-0.10654067993164062,0.05863046646118164,-0.11142945289611816
1700810761665636900,7.033636962890625,-0.08931255340576172,0.03618335723876953,-0.08919540792703629
1700810761675636700,7.04363671875,-0.10840606689453125,0.04806041717529297,0.008540019392967224
1700810761685636900,7.053636962890625,-0.13742542266845703,0.06064558029174805,0.1404445469379425
1700810761695636700,7.06363671875,-0.11884880065917969,0.011548995971679688,0.21634352207183838
1700810761705636900,7.073636962890625,0.0045375823974609375,-0.01742839813232422,0.13993410766124725
1700810761715636700,7.08363671875,0.17307186126708984,0.009205341339111328,0.008810341358184814
1700810761725636900,7.093636962890625,0.24854564666748047,0.01119232177734375,-0.05676671862602234
1700810761735636700,7.10363671875,0.1956319808959961,0.03541755676269531,-0.08789368718862534
1700810761745636900,7.113636962890625,0.06955432891845703,0.04099559783935547,-0.1139494776725769
1700810761755636700,7.12363671875,-0.0701589584350586,0.08598899841308594,-0.10175269097089767
1700810761765636600,7.13363671875,-0.13349246978759766,0.054848670959472656,-0.013995364308357239
1700810761775636700,7.14363671875,-0.08527374267578125,0.025556087493896484,0.03935600817203522
1700810761785636600,7.15363671875,-0.0022630691528320312,0.015164852142333984,0.05743671953678131
1700810761795636700,7.16363671875,0.07536125183105469,-0.02280282974243164,0.09139378368854523
1700810761805636600,7.17363671875,0.12186527252197266,-0.051218509674072266,0.12353725731372833
1700810761815636700,7.18363671875,0.07085800170898438,-0.05216789245605469,0.17143778502941132
1700810761825636600,7.19363671875,-0.010195732116699219,-0.0384058952331543,0.07432006299495697
1700810761835636700,7.20363671875,-0.044940948486328125,0.01445913314819336,-0.05897869914770126
1700810761845636600,7.21363671875,-0.13416385650634766,0.0661015510559082,-0.09803631156682968
1700810761855636700,7.22363671875,-0.2137441635131836,0.0984182357788086,-0.09467237442731857
1700810761865636600,7.23363671875,-0.23130416870117188,0.08574533462524414,-0.05483020097017288
1700810761875636700,7.24363671875,-0.21666812896728516,0.04216623306274414,0.004317864775657654
1700810761885636600,7.25363671875,-0.09775638580322266,0.02217245101928711,0.06701382994651794
1700810761895636700,7.26363671875,0.027449607849121094,-0.0033478736877441406,0.17257513105869293
1700810761905636600,7.27363671875,0.11644840240478516,-0.06184864044189453,0.22595366835594177
1700810761915636700,7.28363671875,0.15082836151123047,-0.08768558502197266,0.17952698469161987
1700810761925636600,7.29363671875,0.16933822631835938,-0.060170650482177734,0.1250733584165573
1700810761935636700,7.30363671875,0.07386493682861328,-0.003365039825439453,-0.06592486798763275
1700810761945636600,7.31363671875,0.04376983642578125,0.06397247314453125,-0.2452167272567749
1700810761955636700,7.32363671875,0.020895957946777344,0.13123703002929688,-0.18952420353889465
1700810761965636600,7.33363671875,-0.007294654846191406,0.12057876586914062,-0.10096855461597443
1700810761975636700,7.34363671875,-0.007452964782714844,0.06109142303466797,0.04035085439682007
1700810761985636600,7.35363671875,0.04212665557861328,0.0530247688293457,0.11788272857666016
1700810761995636700,7.36363671875,0.07941246032714844,0.026415348052978516,0.14277663826942444
1700810762005636600,7.37363671875,0.11439228057861328,0.035420894622802734,0.09727892279624939
1700810762015636700,7.38363671875,0.15485000610351562,-0.004866123199462891,0.009866863489151001
1700810762025636600,7.39363671875,0.09581947326660156,0.0006747245788574219,-0.027968496084213257
1700810762035636700,7.40363671875,-0.038848876953125,0.021126747131347656,-0.1365685760974884
1700810762045636600,7.41363671875,-0.18251609802246094,0.07641458511352539,-0.10125132650136948
1700810762055636700,7.42363671875,-0.26425647735595703,0.06534290313720703,-0.04426117241382599
1700810762065636600,7.43363671875,-0.2320079803466797,0.048955440521240234,-0.015150517225265503
1700810762075636700,7.44363671875,-0.17958354949951172,0.03756904602050781,0.050596803426742554
1700810762085636600,7.45363671875,-0.09470272064208984,0.03291463851928711,0.10050226747989655
1700810762095636700,7.46363671875,-0.0007886886596679688,0.002925872802734375,0.02639569342136383
1700810762105636600,7.47363671875,0.04039573669433594,0.0017676353454589844,-0.004388749599456787
1700810762115636700,7.48363671875,0.07762813568115234,-0.01062631607055664,0.018084093928337097
1700810762125636600,7.49363671875,0.05331134796142578,-0.045928001403808594,0.04923924803733826
1700810762135636700,7.50363671875,0.039127349853515625,-0.051126956939697266,0.10882395505905151
1700810762145636600,7.51363671875,0.0970621109008789,-0.03291940689086914,0.08436740934848785
1700810762155636700,7.52363671875,0.17403888702392578,-0.004969120025634766,0.008387312293052673
1700810762165636600,7.53363671875,0.20775890350341797,0.05198383331298828,-0.02353416383266449
1700810762175636700,7.54363671875,0.18880462646484375,0.058725833892822266,-0.0906403511762619
1700810762185636600,7.55363671875,0.141143798828125,0.08227348327636719,-0.04592501372098923
1700810762195636700,7.56363671875,0.07410526275634766,0.0847926139831543,0.026902630925178528
1700810762205636600,7.57363671875,0.037998199462890625,0.023104190826416016,0.049707889556884766
1700810762215636700,7.58363671875,-0.0031690597534179688,-0.02608346939086914,0.12233881652355194
1700810762225636600,7.59363671875,-0.04199028015136719,-0.05605173110961914,0.16000644862651825
1700810762235636700,7.60363671875,-0.07585906982421875,-0.08876228332519531,0.1365571767091751
1700810762245636600,7.61363671875,-0.11456966400146484,-0.10947513580322266,0.16549859941005707
1700810762255636700,7.62363671875,-0.014665603637695312,-0.005304813385009766,0.14866556227207184
1700810762265636600,7.63363671875,-0.10550785064697266,-0.05355501174926758,-0.011196807026863098
1700810762275636700,7.64363671875,-0.14607906341552734,-0.11365699768066406,-0.05480740964412689
1700810762285636600,7.65363671875,-0.18598556518554688,-0.03618478775024414,0.11453750729560852
1700810762295636700,7.66363671875,-0.24594593048095703,-0.038252830505371094,0.19530001282691956
1700810762305636400,7.67363623046875,-0.10304069519042969,-0.09652996063232422,0.11994652450084686
